Folder: FEMCOL/02_Data/00_PilotTests

Note: README.md
# FEMCOL
Repository used for the Msc thesis investigating the collagen tensile properties of the ageing human proximal femur. This repo aims to facilitate collaborations between coworker of the project.

A conda virtual environment is used to allow every user to get identical results and facilitate internal script sharing.

First, install Anaconda using the instructions of:\
https://docs.conda.io/projects/conda/en/latest/user-guide/install/index.html

Once done, you can go in the directory where the file "FEMCOL.yml" is stored and create a new virtual environment using:\
conda env create -f FEMCOL.yml

After the installation, the virtual environment can be activated using:\
conda activate FEMCOL

File: FilteredSignals_2Order_3.05e-04CutOff.csv
Time [s],Displacement [mm],Force [N]
19.2588,-8.68255e-05,2.59834
21.0166,0.0105909,6.13805
22.7744,0.022363,8.33267
24.5322,0.0340959,10.4705
26.29,0.0458716,12.7373
28.0479,0.0575245,15.1429
29.8057,0.0692975,17.7102
31.5635,0.0811003,20.3373
33.3213,0.0929494,23.0756
35.0791,0.0863603,20.58
36.8369,0.0747153,16.8013
38.5947,0.0630126,13.3584
40.3525,0.0513127,9.85225
42.1104,0.0396529,6.51102
43.8682,0.0278823,3.32045
45.626,0.035083,6.03592
47.3838,0.0467197,9.5648
49.1416,0.0584084,12.9805
50.8994,0.0701624,16.1263
52.6572,0.08184,19.2779
54.415,0.086776,20.0763
56.1729,0.0751407,16.3496
57.9307,0.0634053,12.8963
59.6885,0.0516279,9.49688
61.4463,0.0400306,6.07762
63.2041,0.0281866,2.91813
64.9619,0.0372363,6.13129
66.7197,0.0489596,9.66686
68.4775,0.0606744,13.1048
70.2354,0.0724422,16.4035
71.9932,0.0840903,19.5251
73.751,0.0827607,18.559
75.5088,0.0710605,14.9768
77.2666,0.0594427,11.3493
79.0244,0.0476884,7.99129
80.7822,0.0358942,4.64597
82.54,0.031494,3.9243
84.2979,0.0430322,7.643
86.0557,0.0547267,11.0748
87.8135,0.0664642,14.3911
89.5713,0.078299,17.6553
91.3291,0.0885287,20.2848
93.0869,0.077042,16.4254
94.8447,0.0653205,12.7665
96.6025,0.0535639,9.42697
98.3604,0.0418642,5.93514
100.118,0.0300789,2.71972
101.876,0.0398652,6.04844
103.634,0.0514627,9.65192
105.392,0.0631792,13.0579
107.149,0.0749476,16.3452
108.907,0.0866488,19.5865
110.665,0.081955,17.6831
112.423,0.0703729,13.9916
114.181,0.0586316,10.4123
115.938,0.0467819,7.12011
117.696,0.0350425,3.83832
119.454,0.0373626,5.07019
121.212,0.0490126,8.71729
122.97,0.060834,12.1875
124.728,0.0724396,15.5509
126.485,0.0841568,18.6424
128.243,0.0863694,18.8367
130.001,0.0747094,15.1443
131.759,0.0629127,11.5771
133.517,0.0513845,8.18454
135.274,0.0396265,4.80079
137.032,0.0351633,3.98309
138.79,0.0468851,7.61845
140.548,0.0584928,11.1587
142.306,0.0701793,14.5831
144.063,0.0820211,17.9196
145.821,0.0922496,20.5332
147.579,0.0807489,16.7254
149.337,0.0689847,13.1449
151.095,0.0573648,9.79683
152.853,0.0456904,6.37541
154.61,0.0338604,3.23581
156.368,0.0413217,5.92218
158.126,0.0530463,9.63059
159.884,0.0646391,13.1369
161.642,0.0763536,16.4942
163.399,0.0881385,19.6773
165.157,0.0890813,19.4271
166.915,0.0773935,15.6972
168.673,0.0658023,12.1505
170.431,0.0540172,8.70444
172.188,0.0422642,5.35459
173.946,0.0341538,3.36639
175.704,0.0456562,7.12389
177.462,0.0573179,10.7956
179.22,0.0691307,14.1708
180.978,0.080831,17.4854
182.735,0.0924906,20.6769
184.493,0.0822687,17.2391
186.251,0.0706243,13.5774
188.009,0.0588975,10.0537
189.767,0.0472571,6.70399
191.524,0.0353679,3.45258
193.282,0.0416092,5.76441
195.04,0.053377,9.4939
196.798,0.0649975,12.8925
198.556,0.0767759,16.3048
200.313,0.0885304,19.4496
202.071,0.0810412,16.7574
203.829,0.0693165,12.9774
205.587,0.0575687,9.47493
207.345,0.0457962,6.07086
209.103,0.0340313,2.85205
210.86,0.0436781,6.15753
212.618,0.0553472,9.73805
214.376,0.0671923,13.2154
216.134,0.0787631,16.7088
217.892,0.0846635,18.1261
219.649,0.0847692,18.0837
221.407,0.0847763,17.9943
223.165,0.084804,17.9524
224.923,0.0847309,17.9263
226.681,0.0847339,17.8849
228.438,0.0848418,17.7879
230.196,0.0848217,17.8452
231.954,0.0847671,17.7286
233.712,0.0848173,17.5896
235.47,0.084899,17.6254
237.228,0.0848019,17.6004
238.985,0.0848,17.5726
240.743,0.0848333,17.5108
242.501,0.0848201,17.5004
244.259,0.084752,17.4247
246.017,0.0849402,17.541
247.774,0.0847801,17.5164
249.532,0.0848646,17.5067
251.29,0.0848874,17.483
253.048,0.0847632,17.5126
254.806,0.0848973,17.4481
256.563,0.0848544,17.3489
258.321,0.084848,17.3619
260.079,0.084874,17.3934
261.837,0.0848136,17.3654
263.595,0.0848969,17.3204
265.353,0.0849893,17.268
267.11,0.0848761,17.3689
268.868,0.0848877,17.3643
270.626,0.0848583,17.4468
272.384,0.0848312,17.3078
274.142,0.0847404,17.3928
275.899,0.0848715,17.2937
277.657,0.0848675,17.328
279.415,0.0848183,17.3033
281.173,0.084977,17.2663
282.931,0.0849204,17.3126
284.688,0.0849272,17.3194
286.446,0.0848475,17.2474
288.204,0.084891,17.2315
289.962,0.0848953,17.1734
291.72,0.0848073,17.1798
293.478,0.0848406,17.1536
295.235,0.084844,16.9919
296.993,0.0847802,17.0792
298.751,0.0847681,17.0302
300.509,0.0848466,17.1106
302.267,0.0848059,17.0286
304.024,0.0849073,17.1363
305.782,0.0847566,17.1734
307.54,0.0848681,17.1478
309.298,0.0848853,17.2191
311.056,0.0848445,17.1665
312.813,0.0848942,17.1499
314.571,0.0848513,17.1185
316.329,0.0848128,17.1468
318.087,0.0847397,17.0958
319.845,0.0849634,17.0819
321.603,0.0847756,17.0666
323.36,0.0848402,17.0774
325.118,0.0848854,17.052
326.876,0.0848015,16.9364
328.634,0.0849321,16.8449
330.392,0.0848691,16.8528
332.149,0.0847705,16.8943
333.907,0.0847831,16.9172
335.665,0.0848393,16.9953
337.423,0.084876,16.9595
339.181,0.084867,16.9287
340.938,0.0848481,16.8191
342.696,0.0848672,16.8693
344.454,0.0848749,16.8427
346.212,0.0848401,16.8295
347.97,0.0849041,16.729
349.728,0.0848946,16.6594
351.485,0.0848354,16.7023
353.243,0.0848272,16.5972
355.001,0.0847898,16.6859
356.759,0.0848976,16.6147
358.517,0.0847796,16.5916
360.274,0.0848578,16.607
362.032,0.0848168,16.508
363.79,0.0848946,16.6297
365.548,0.0848499,16.569
367.306,0.0849155,16.6534
369.063,0.0848276,16.6325
370.821,0.0847841,16.7153
372.579,0.0848881,16.6347
374.337,0.0848555,16.5509
376.095,0.0849398,16.6267
377.853,0.0849182,16.6431
379.61,0.0847821,16.6831
381.368,0.0849509,16.7098
383.126,0.0847739,16.6644
384.884,0.0848454,16.6269
386.642,0.0848326,16.5653
388.399,0.0848085,16.5436
390.157,0.0847929,16.6014
391.915,0.0848759,16.5878
393.673,0.0847495,16.6204
395.431,0.0847981,16.6057
397.188,0.0848788,16.5306
398.946,0.0847959,16.5229
400.704,0.0848608,16.457
402.462,0.084984,16.4229
404.22,0.0848509,16.545
405.978,0.0848298,16.4862
407.735,0.0847944,16.6252
409.493,0.084881,16.5268
411.251,0.0848866,16.5245
413.009,0.0848608,16.517
414.767,0.0849208,16.558
416.524,0.0848314,16.4884
418.282,0.0847992,16.5478
420.04,0.0848744,16.6512
421.798,0.0848547,16.5636
423.556,0.0847534,16.5258
425.313,0.0848076,16.5501
427.071,0.0849136,16.5102
428.829,0.0849106,16.5286
430.587,0.0849148,16.4653
432.345,0.0848212,16.5094
434.103,0.084805,16.4543
435.86,0.0849072,16.4584
437.618,0.0849089,16.4232
439.376,0.0848233,16.4753
441.134,0.0848941,16.5378
442.892,0.0848453,16.501
444.649,0.0848151,16.5336
446.407,0.0849193,16.4345
448.165,0.0849237,16.4856
449.923,0.084822,16.5926
451.681,0.0848022,16.5502
453.438,0.0848211,16.5461
455.196,0.0847825,16.5384
456.954,0.0848238,16.5003
458.712,0.0739563,12.8495
460.47,0.0621917,9.29945
462.228,0.0504505,5.95575
463.985,0.0385766,2.67701
465.743,0.0473108,5.84457
467.501,0.0588937,9.36589
469.259,0.0706643,12.8527
471.017,0.0823704,16.1754
472.774,0.0940134,19.4402
474.532,0.105842,22.5972
476.29,0.117727,25.5851
478.048,0.129278,28.7324
479.806,0.141033,31.6634
481.563,0.152876,34.4006
483.321,0.164378,37.2191
485.079,0.176123,40.0409
486.837,0.187858,42.8158
488.595,0.199768,45.5263
490.353,0.211359,48.2369
492.11,0.223063,50.8334
493.868,0.234797,53.5869
495.626,0.246497,56.0676
497.384,0.258307,58.6258
499.142,0.269924,61.0049
500.899,0.281767,63.3206
502.657,0.293475,65.5872
504.415,0.305066,67.5895
506.173,0.316885,69.4205
507.931,0.328566,70.8705
509.688,0.3403,72.0115
511.446,0.352075,72.6623
513.204,0.363889,72.9146
514.962,0.375504,72.8896
516.72,0.387335,72.7311
518.478,0.398935,72.2157
520.235,0.410636,71.569
521.993,0.42242,70.9551
523.751,0.434114,70.3911
525.509,0.445853,69.9289
527.267,0.457665,69.3773
529.024,0.469268,68.7534
530.782,0.481011,68.2658
532.54,0.49281,67.798
534.298,0.504493,67.3013
536.056,0.516197,66.729
537.813,0.527904,66.1987
539.571,0.539574,65.646
541.329,0.551407,65.0251
543.087,0.563111,64.5643
543.995,0.568399,64.1578