Folder: FEMCOL/04_Results/01_Demineralized

Note: README.md
# FEMCOL
Repository used for the Msc thesis investigating the collagen tensile properties of the ageing human proximal femur. This repo aims to facilitate collaborations between coworker of the project.

A conda virtual environment is used to allow every user to get identical results and facilitate internal script sharing.

First, install Anaconda using the instructions of:\
https://docs.conda.io/projects/conda/en/latest/user-guide/install/index.html

Once done, you can go in the directory where the file "FEMCOL.yml" is stored and create a new virtual environment using:\
conda env create -f FEMCOL.yml

After the installation, the virtual environment can be activated using:\
conda activate FEMCOL

File: ResultsFailureTesting.csv
Sample ID,Ultimate stress / MPa,Ultimate strain / -,Ultimate Force / N,Apparent modulus / MPa,Stiffness / N/mm
385L,[11.23],[0.0791],[35.27],188.426,188.426
385R,[9.33],[0.0835],[29.3],136.574,136.574
386L,[22.51],[0.0948],[70.72],308.629,308.629
387L,[10.87],[0.0725],[34.14],195.765,195.765
388L,[9.36],[0.074],[29.39],162.52,162.52
388R,[5.94],[0.048],[18.66],157.537,157.537
389L,[9.27],[0.0777],[29.14],154.814,154.814
389R,[9.75],[0.0787],[30.64],180.084,180.084
392L,[18.31],[0.0731],[57.52],360.965,360.965
392R,[15.01],[0.0817],[47.16],242.876,242.876
394L,[17.41],[0.0781],[54.69],302.805,302.805
394R,[14.25],[0.0783],[44.76],269.027,269.027
395L,[14.99],[0.0717],[47.09],270.197,270.197
397L,[21.32],[0.0895],[66.96],313.95,313.95
397R,[13.75],[0.0846],[43.18],203.508,203.508
398R,[23.58],[0.077],[74.08],468.567,468.567
399L,[16.38],[0.0918],[51.45],224.396,224.396
399R,[15.01],[0.0908],[47.14],230.924,230.924
400L,[20.79],[0.1034],[65.3],248.839,248.839
401L,[9.19],[0.0622],[28.86],188.936,188.936
401R,[8.59],[0.0717],[27.],162.701,162.701
402R,[19.14],[0.0804],[60.13],356.143,356.143
403L,[15.94],[0.0836],[50.09],254.52,254.52
404L,[12.88],[0.0686],[40.47],269.749,269.749
404R,[10.48],[0.0616],[32.92],209.708,209.708
409R,[20.6],[0.0862],[64.71],303.568,303.568
415R,[18.81],[0.0846],[59.08],289.934,289.934
416R,[14.41],[0.0875],[45.28],208.804,208.804
419L,[13.51],[0.0707],[42.44],243.129,243.129
419R,[11.19],[0.0661],[35.14],223.466,223.466
420R,[14.01],[0.0752],[44.01],244.432,244.432
421L,[18.68],[0.074],[58.68],336.454,336.454
433R,[10.44],[0.0666],[32.81],196.99,196.99
437R,[7.96],[0.0712],[25.],140.631,140.631