Folder: FEMCOL/04_Results/05_Raman

Note: README.md
# FEMCOL
Repository used for the Msc thesis investigating the collagen tensile properties of the ageing human proximal femur. This repo aims to facilitate collaborations between coworker of the project.

A conda virtual environment is used to allow every user to get identical results and facilitate internal script sharing.

First, install Anaconda using the instructions of:\
https://docs.conda.io/projects/conda/en/latest/user-guide/install/index.html

Once done, you can go in the directory where the file "FEMCOL.yml" is stored and create a new virtual environment using:\
conda env create -f FEMCOL.yml

After the installation, the virtual environment can be activated using:\
conda activate FEMCOL

File: RamanResults.csv
,Unnamed: 0,amideI_status_mean,amideI_status_sd,crystallinity_mean,crystallinity_sd,M2M_ratio_mean,M2M_ratio_sd
0,385L,1.4167,0.0146901,0.122386,0.000831039,0.65278,0.0306399
1,385R,1.40648,0.031528,0.12264,0.000584586,0.690427,0.0368034
2,386L,1.35552,0.0133281,0.122666,0.00021419,0.723854,0.0490366
3,387L,1.43793,0.079579,0.123284,0.00194706,0.664353,0.0305178
4,388L,1.38957,0.0429845,0.122403,0.00107401,0.644287,0.0396604
5,388R,1.40705,0.06755,0.121845,0.000608862,0.628419,0.0497468
6,389L,1.4313,0.102402,0.121311,0.000797723,0.663602,0.067557
7,389R,1.41382,0.0879293,0.121272,0.000957179,0.677594,0.0350267
8,390R,1.39333,0.0632492,0.121811,0.00111367,0.627691,0.0692881
9,392L,1.39589,0.0984643,0.121844,0.00164637,0.724144,0.0883418
10,392R,1.46678,0.124588,0.122037,0.000565588,0.667449,0.0320124
11,394L,1.37845,0.0519119,0.124239,0.000703452,0.665056,0.0441593
12,394R,1.33085,0.0618556,0.123812,0.00079139,0.677473,0.0249851
13,395L,1.42786,0.0889777,0.121088,0.000747019,0.646,0.0297035
14,395R,1.42929,0.0893747,0.121704,0.000384578,0.711207,0.0311143
15,397L,1.46005,0.0598253,0.122592,0.00061688,0.685017,0.0375959
16,397R,1.43218,0.0687635,0.121715,0.000924093,0.738123,0.0464905
17,398R,1.44339,0.0292615,0.120903,0.00103727,0.644007,0.0737747
18,399L,1.36038,0.0752721,0.122138,0.000920199,0.674106,0.0376898
19,399R,1.36765,0.0860556,0.12294,0.000696021,0.720265,0.0322742
20,400L,1.51593,0.154121,0.123232,0.000760804,0.540307,0.0217843
21,400R,1.44169,0.0740323,0.122535,0.000857251,0.625426,0.0411137
22,401L,1.35242,0.0719034,0.122588,0.000630504,0.665604,0.0404297
23,401R,1.46336,0.0476013,0.12281,0.0005305,0.646511,0.0314472
24,402L,1.42931,0.0386932,0.121806,0.00162873,0.657235,0.057167
25,402R,1.41332,0.0848573,0.121836,0.00100346,0.636906,0.0474966
26,403L,1.45257,0.0436004,0.122017,0.00134193,0.711719,0.0266163
27,403R,1.4294,0.0550678,0.122371,0.00065016,0.716868,0.0169975
28,404L,1.44261,0.0546654,0.12225,0.000225234,0.70638,0.0538009
29,404R,1.37169,0.0570231,0.121981,0.000572917,0.662278,0.0416184
30,409R,1.39459,0.046193,0.121569,0.000222772,0.720407,0.0631047
31,415R,1.41221,0.0721201,0.121172,0.000194677,0.648355,0.0230162
32,416R,1.42398,0.105936,0.122555,0.000806505,0.680124,0.0314407
33,419L,1.3391,0.0632366,0.121489,0.000648193,0.647643,0.035044
34,419R,1.37778,0.113658,0.121865,0.00117211,0.612008,0.0533409
35,420R,1.43595,0.0918465,0.122863,0.000797601,0.60507,0.0370709
36,421L,1.39159,0.112895,0.122465,0.00118938,0.682055,0.0350281
37,433L,1.44609,0.0837382,0.121705,0.000807077,0.680147,0.0300202
38,433R,1.36021,0.0407534,0.123378,0.000643257,0.67149,0.0501708
39,437R,1.43996,0.097179,0.121924,0.00050623,0.665317,0.0345087